sid,trial,image,option1,option2,choice_key,choice,rt
sub-007,0,C:\Users\hk4378\Desktop\Stim\save_0.png,press f to select this option,press j to select this option,2,press j to select this option,12.757843300001696
sub-007,1,C:\Users\hk4378\Desktop\Stim\save_11.png,"100% chance to save 11 people, while 1 person will fall","50% chance to save all 12 people, at the risk that all 12 will fall",1,"100% chance to save 11 people, while 1 person will fall",2.311507200000051
sub-007,2,C:\Users\hk4378\Desktop\Stim\save_17.png,"100% chance to save 6 people, while 1 person will fall","50% chance to save all 7 people, at the risk that all 7 will fall",1,"100% chance to save 6 people, while 1 person will fall",2.2711772000002384
sub-007,3,C:\Users\hk4378\Desktop\Stim\save_4.png,"100% chance to save 4 people, while 8 people will fall","50% chance to save all 12 people, at the risk that all 12 will fall",2,"50% chance to save all 12 people, at the risk that all 12 will fall",3.359945099997276
sub-007,4,C:\Users\hk4378\Desktop\Stim\save_14.png,"100% chance to save 3 people, while 4 people will fall","50% chance to save all 7 people, at the risk that all 7 will fall",1,"100% chance to save 3 people, while 4 people will fall",4.72360519999711
sub-007,5,C:\Users\hk4378\Desktop\Stim\save_7.png,"100% chance to save 7 people, while 5 people will fall","50% chance to save all 12 people, at the risk that all 12 will fall",1,"100% chance to save 7 people, while 5 people will fall",1.512990200000786
sub-007,6,C:\Users\hk4378\Desktop\Stim\save_15.png,"100% chance to save 4 people, while 3 people will fall","50% chance to save all 7 people, at the risk that all 7 will fall",1,"100% chance to save 4 people, while 3 people will fall",3.0120774999995774
sub-007,7,C:\Users\hk4378\Desktop\Stim\save_9.png,"100% chance to save 9 people, while 3 people will fall","50% chance to save all 12 people, at the risk that all 12 will fall",1,"100% chance to save 9 people, while 3 people will fall",1.0982433999997738
sub-007,8,C:\Users\hk4378\Desktop\Stim\save_13.png,"100% chance to save 2 people, while 5 people will fall","50% chance to save all 7 people, at the risk that all 7 will fall",2,"50% chance to save all 7 people, at the risk that all 7 will fall",3.65342740000051
sub-007,9,C:\Users\hk4378\Desktop\Stim\save_2.png,"100% chance to save 2 people, while 10 people will fall","50% chance to save all 12 people, at the risk that all 12 will fall",2,"50% chance to save all 12 people, at the risk that all 12 will fall",2.936258599998837
sub-007,10,C:\Users\hk4378\Desktop\Stim\save_12.png,"100% chance to save 1 person, while 6 people will fall","50% chance to save all 7 people, at the risk that all 7 will fall",2,"50% chance to save all 7 people, at the risk that all 7 will fall",1.38954890000241
sub-007,11,C:\Users\hk4378\Desktop\Stim\save_1.png,"100% chance to save 1 person, while 11 people will fall","50% chance to save all 12 people, at the risk that all 12 will fall",2,"50% chance to save all 12 people, at the risk that all 12 will fall",1.2820341999977245
sub-007,12,C:\Users\hk4378\Desktop\Stim\save_16.png,"100% chance to save 5 people, while 2 people will fall","50% chance to save all 7 people, at the risk that all 7 will fall",1,"100% chance to save 5 people, while 2 people will fall",1.5759636000002502
sub-007,13,C:\Users\hk4378\Desktop\Stim\save_10.png,"100% chance to save 10 people, while 2 people will fall","50% chance to save all 12 people, at the risk that all 12 will fall",1,"100% chance to save 10 people, while 2 people will fall",0.9302328999983729
sub-007,14,C:\Users\hk4378\Desktop\Stim\save_17.png,"100% chance to save 6 people, while 1 person will fall","50% chance to save all 7 people, at the risk that all 7 will fall",1,"100% chance to save 6 people, while 1 person will fall",0.8485126000014134
sub-007,15,C:\Users\hk4378\Desktop\Stim\save_6.png,"100% chance to save 6 people, while 6 people will fall","50% chance to save all 12 people, at the risk that all 12 will fall",2,"50% chance to save all 12 people, at the risk that all 12 will fall",7.327195300000312
sub-007,16,C:\Users\hk4378\Desktop\Stim\save_15.png,"100% chance to save 4 people, while 3 people will fall","50% chance to save all 7 people, at the risk that all 7 will fall",1,"100% chance to save 4 people, while 3 people will fall",3.3719482999986212
sub-007,17,C:\Users\hk4378\Desktop\Stim\save_3.png,"100% chance to save 3 people, while 9 people will fall","50% chance to save all 12 people, at the risk that all 12 will fall",2,"50% chance to save all 12 people, at the risk that all 12 will fall",9.270188999998936
sub-007,18,C:\Users\hk4378\Desktop\Stim\save_12.png,"100% chance to save 1 person, while 6 people will fall","50% chance to save all 7 people, at the risk that all 7 will fall",2,"50% chance to save all 7 people, at the risk that all 7 will fall",5.565707499998098
sub-007,19,C:\Users\hk4378\Desktop\Stim\save_5.png,"100% chance to save 5 people, while 7 people will fall","50% chance to save all 12 people, at the risk that all 12 will fall",2,"50% chance to save all 12 people, at the risk that all 12 will fall",2.9819271999986086
sub-007,20,C:\Users\hk4378\Desktop\Stim\save_14.png,"100% chance to save 3 people, while 4 people will fall","50% chance to save all 7 people, at the risk that all 7 will fall",2,"50% chance to save all 7 people, at the risk that all 7 will fall",3.923095199999807
sub-007,21,C:\Users\hk4378\Desktop\Stim\save_8.png,"100% chance to save 8 people, while 4 people will fall","50% chance to save all 12 people, at the risk that all 12 will fall",1,"100% chance to save 8 people, while 4 people will fall",1.5568798999993305
sub-007,22,C:\Users\hk4378\Desktop\Stim\save_17.png,"100% chance to save 6 people, while 1 person will fall","50% chance to save all 7 people, at the risk that all 7 will fall",1,"100% chance to save 6 people, while 1 person will fall",1.1086336999978812
sub-007,23,C:\Users\hk4378\Desktop\Stim\save_11.png,"100% chance to save 11 people, while 1 person will fall","50% chance to save all 12 people, at the risk that all 12 will fall",1,"100% chance to save 11 people, while 1 person will fall",0.8283580999996047
sub-007,24,C:\Users\hk4378\Desktop\Stim\save_13.png,"100% chance to save 2 people, while 5 people will fall","50% chance to save all 7 people, at the risk that all 7 will fall",2,"50% chance to save all 7 people, at the risk that all 7 will fall",1.6537519000012253
sub-007,25,C:\Users\hk4378\Desktop\Stim\save_5.png,"100% chance to save 5 people, while 7 people will fall","50% chance to save all 12 people, at the risk that all 12 will fall",1,"100% chance to save 5 people, while 7 people will fall",23.854829100000643
sub-007,26,C:\Users\hk4378\Desktop\Stim\save_16.png,"100% chance to save 5 people, while 2 people will fall","50% chance to save all 7 people, at the risk that all 7 will fall",1,"100% chance to save 5 people, while 2 people will fall",1.364736699997593
sub-007,27,C:\Users\hk4378\Desktop\Stim\save_4.png,"100% chance to save 4 people, while 8 people will fall","50% chance to save all 12 people, at the risk that all 12 will fall",2,"50% chance to save all 12 people, at the risk that all 12 will fall",1.4274654000000737
sub-007,28,C:\Users\hk4378\Desktop\Stim\save_14.png,"100% chance to save 3 people, while 4 people will fall","50% chance to save all 7 people, at the risk that all 7 will fall",2,"50% chance to save all 7 people, at the risk that all 7 will fall",3.358590700001514
sub-007,29,C:\Users\hk4378\Desktop\Stim\save_1.png,"100% chance to save 1 person, while 11 people will fall","50% chance to save all 12 people, at the risk that all 12 will fall",2,"50% chance to save all 12 people, at the risk that all 12 will fall",1.733683700000256
sub-007,30,C:\Users\hk4378\Desktop\Stim\save_13.png,"100% chance to save 2 people, while 5 people will fall","50% chance to save all 7 people, at the risk that all 7 will fall",2,"50% chance to save all 7 people, at the risk that all 7 will fall",2.74608040000021
sub-007,31,C:\Users\hk4378\Desktop\Stim\save_7.png,"100% chance to save 7 people, while 5 people will fall","50% chance to save all 12 people, at the risk that all 12 will fall",1,"100% chance to save 7 people, while 5 people will fall",2.925765500000125
sub-007,32,C:\Users\hk4378\Desktop\Stim\save_16.png,"100% chance to save 5 people, while 2 people will fall","50% chance to save all 7 people, at the risk that all 7 will fall",1,"100% chance to save 5 people, while 2 people will fall",2.898765600002662
sub-007,33,C:\Users\hk4378\Desktop\Stim\save_11.png,"100% chance to save 11 people, while 1 person will fall","50% chance to save all 12 people, at the risk that all 12 will fall",1,"100% chance to save 11 people, while 1 person will fall",0.8892573000011907
sub-007,34,C:\Users\hk4378\Desktop\Stim\save_15.png,"100% chance to save 4 people, while 3 people will fall","50% chance to save all 7 people, at the risk that all 7 will fall",1,"100% chance to save 4 people, while 3 people will fall",6.324342899999465
sub-007,35,C:\Users\hk4378\Desktop\Stim\save_8.png,"100% chance to save 8 people, while 4 people will fall","50% chance to save all 12 people, at the risk that all 12 will fall",1,"100% chance to save 8 people, while 4 people will fall",3.1991116999997757
sub-007,36,C:\Users\hk4378\Desktop\Stim\save_12.png,"100% chance to save 1 person, while 6 people will fall","50% chance to save all 7 people, at the risk that all 7 will fall",2,"50% chance to save all 7 people, at the risk that all 7 will fall",2.5473464999995485
sub-007,37,C:\Users\hk4378\Desktop\Stim\save_2.png,"100% chance to save 2 people, while 10 people will fall","50% chance to save all 12 people, at the risk that all 12 will fall",2,"50% chance to save all 12 people, at the risk that all 12 will fall",2.157753199997387
sub-007,38,C:\Users\hk4378\Desktop\Stim\save_17.png,"100% chance to save 6 people, while 1 person will fall","50% chance to save all 7 people, at the risk that all 7 will fall",1,"100% chance to save 6 people, while 1 person will fall",2.5829847999993945
sub-007,39,C:\Users\hk4378\Desktop\Stim\save_9.png,"100% chance to save 9 people, while 3 people will fall","50% chance to save all 12 people, at the risk that all 12 will fall",1,"100% chance to save 9 people, while 3 people will fall",0.8981287999995402
sub-007,40,C:\Users\hk4378\Desktop\Stim\save_12.png,"100% chance to save 1 person, while 6 people will fall","50% chance to save all 7 people, at the risk that all 7 will fall",2,"50% chance to save all 7 people, at the risk that all 7 will fall",9.758482899997034
sub-007,41,C:\Users\hk4378\Desktop\Stim\save_6.png,"100% chance to save 6 people, while 6 people will fall","50% chance to save all 12 people, at the risk that all 12 will fall",1,"100% chance to save 6 people, while 6 people will fall",14.442374300000665
sub-007,42,C:\Users\hk4378\Desktop\Stim\save_17.png,"100% chance to save 6 people, while 1 person will fall","50% chance to save all 7 people, at the risk that all 7 will fall",1,"100% chance to save 6 people, while 1 person will fall",1.9478806000006443
sub-007,43,C:\Users\hk4378\Desktop\Stim\save_3.png,"100% chance to save 3 people, while 9 people will fall","50% chance to save all 12 people, at the risk that all 12 will fall",2,"50% chance to save all 12 people, at the risk that all 12 will fall",4.0606319000035
sub-007,44,C:\Users\hk4378\Desktop\Stim\save_15.png,"100% chance to save 4 people, while 3 people will fall","50% chance to save all 7 people, at the risk that all 7 will fall",1,"100% chance to save 4 people, while 3 people will fall",7.780406900001253
sub-007,45,C:\Users\hk4378\Desktop\Stim\save_10.png,"100% chance to save 10 people, while 2 people will fall","50% chance to save all 12 people, at the risk that all 12 will fall",1,"100% chance to save 10 people, while 2 people will fall",2.1991416000018944
sub-007,46,C:\Users\hk4378\Desktop\Stim\save_16.png,"100% chance to save 5 people, while 2 people will fall","50% chance to save all 7 people, at the risk that all 7 will fall",1,"100% chance to save 5 people, while 2 people will fall",5.2824733999987075
sub-007,47,C:\Users\hk4378\Desktop\Stim\save_7.png,"100% chance to save 7 people, while 5 people will fall","50% chance to save all 12 people, at the risk that all 12 will fall",1,"100% chance to save 7 people, while 5 people will fall",21.34303610000279
sub-007,48,C:\Users\hk4378\Desktop\Stim\save_14.png,"100% chance to save 3 people, while 4 people will fall","50% chance to save all 7 people, at the risk that all 7 will fall",1,"100% chance to save 3 people, while 4 people will fall",7.694681799999671
sub-007,49,C:\Users\hk4378\Desktop\Stim\save_1.png,"100% chance to save 1 person, while 11 people will fall","50% chance to save all 12 people, at the risk that all 12 will fall",2,"50% chance to save all 12 people, at the risk that all 12 will fall",1.1265042000013636
sub-007,50,C:\Users\hk4378\Desktop\Stim\save_13.png,"100% chance to save 2 people, while 5 people will fall","50% chance to save all 7 people, at the risk that all 7 will fall",2,"50% chance to save all 7 people, at the risk that all 7 will fall",4.671791500000836
sub-007,51,C:\Users\hk4378\Desktop\Stim\save_8.png,"100% chance to save 8 people, while 4 people will fall","50% chance to save all 12 people, at the risk that all 12 will fall",1,"100% chance to save 8 people, while 4 people will fall",2.0010763999998744
sub-007,52,C:\Users\hk4378\Desktop\Stim\save_16.png,"100% chance to save 5 people, while 2 people will fall","50% chance to save all 7 people, at the risk that all 7 will fall",1,"100% chance to save 5 people, while 2 people will fall",1.2300219999997353
sub-007,53,C:\Users\hk4378\Desktop\Stim\save_3.png,"100% chance to save 3 people, while 9 people will fall","50% chance to save all 12 people, at the risk that all 12 will fall",2,"50% chance to save all 12 people, at the risk that all 12 will fall",21.215587999999116
sub-007,54,C:\Users\hk4378\Desktop\Stim\save_12.png,"100% chance to save 1 person, while 6 people will fall","50% chance to save all 7 people, at the risk that all 7 will fall",2,"50% chance to save all 7 people, at the risk that all 7 will fall",9.040584400001535
sub-007,55,C:\Users\hk4378\Desktop\Stim\save_10.png,"100% chance to save 10 people, while 2 people will fall","50% chance to save all 12 people, at the risk that all 12 will fall",1,"100% chance to save 10 people, while 2 people will fall",2.4054209999994782
sub-007,56,C:\Users\hk4378\Desktop\Stim\save_14.png,"100% chance to save 3 people, while 4 people will fall","50% chance to save all 7 people, at the risk that all 7 will fall",1,"100% chance to save 3 people, while 4 people will fall",14.624190499998804
sub-007,57,C:\Users\hk4378\Desktop\Stim\save_2.png,"100% chance to save 2 people, while 10 people will fall","50% chance to save all 12 people, at the risk that all 12 will fall",2,"50% chance to save all 12 people, at the risk that all 12 will fall",3.6609558000018296
sub-007,58,C:\Users\hk4378\Desktop\Stim\save_13.png,"100% chance to save 2 people, while 5 people will fall","50% chance to save all 7 people, at the risk that all 7 will fall",2,"50% chance to save all 7 people, at the risk that all 7 will fall",6.143486300003133
sub-007,59,C:\Users\hk4378\Desktop\Stim\save_9.png,"100% chance to save 9 people, while 3 people will fall","50% chance to save all 12 people, at the risk that all 12 will fall",1,"100% chance to save 9 people, while 3 people will fall",3.8010595999985526
sub-007,60,C:\Users\hk4378\Desktop\Stim\save_16.png,"100% chance to save 5 people, while 2 people will fall","50% chance to save all 7 people, at the risk that all 7 will fall",1,"100% chance to save 5 people, while 2 people will fall",10.652046899998822
sub-007,61,C:\Users\hk4378\Desktop\Stim\save_4.png,"100% chance to save 4 people, while 8 people will fall","50% chance to save all 12 people, at the risk that all 12 will fall",2,"50% chance to save all 12 people, at the risk that all 12 will fall",16.537242800000968
sub-007,62,C:\Users\hk4378\Desktop\Stim\save_15.png,"100% chance to save 4 people, while 3 people will fall","50% chance to save all 7 people, at the risk that all 7 will fall",1,"100% chance to save 4 people, while 3 people will fall",5.708589500001835
sub-007,63,C:\Users\hk4378\Desktop\Stim\save_6.png,"100% chance to save 6 people, while 6 people will fall","50% chance to save all 12 people, at the risk that all 12 will fall",1,"100% chance to save 6 people, while 6 people will fall",5.020061499999429
sub-007,64,C:\Users\hk4378\Desktop\Stim\save_17.png,"100% chance to save 6 people, while 1 person will fall","50% chance to save all 7 people, at the risk that all 7 will fall",1,"100% chance to save 6 people, while 1 person will fall",1.8583555000004708
sub-007,65,C:\Users\hk4378\Desktop\Stim\save_5.png,"100% chance to save 5 people, while 7 people will fall","50% chance to save all 12 people, at the risk that all 12 will fall",1,"100% chance to save 5 people, while 7 people will fall",12.711333000002924
sub-007,66,C:\Users\hk4378\Desktop\Stim\save_14.png,"100% chance to save 3 people, while 4 people will fall","50% chance to save all 7 people, at the risk that all 7 will fall",1,"100% chance to save 3 people, while 4 people will fall",11.988412200000312
sub-007,67,C:\Users\hk4378\Desktop\Stim\save_11.png,"100% chance to save 11 people, while 1 person will fall","50% chance to save all 12 people, at the risk that all 12 will fall",1,"100% chance to save 11 people, while 1 person will fall",1.5037115000013728
sub-007,68,C:\Users\hk4378\Desktop\Stim\save_4.png,"100% chance to save 4 people, while 8 people will fall","50% chance to save all 12 people, at the risk that all 12 will fall",2,"50% chance to save all 12 people, at the risk that all 12 will fall",9.500095799998235
